Folder: paramaterial/examples/hot axisymmetric compression example/data/04 corrected data

Note: README.md
# paramaterial
Post-processing toolkit for materials testing data.

File: testID_0135.csv
level_0,index,Time(sec),Force(kN),Jaw(mm),PowAngle(deg),Power(W),Pram,PTemp,Strain,Stress(MPa),Stroke(mm),TC1(C),wedge(mm),uncorrected stress
1873,1873,155.3448,1.15913,0.0382783,0.0,0,9.03371,0.0,0.00235058,14.0922,10.0417,331.971,-9.30676,14.0922
1878,1878,155.3458,6.06837,0.142656,0.0,0,8.88739,0.0,0.00918747,73.2285,9.88548,332.245,-9.30375,73.2285
1883,1883,155.3468,7.72218,0.375012,0.0,0,8.74165,0.0,0.02492414,91.6335,9.67453,332.519,-9.30207,91.6335
1888,1888,155.3478,8.76802,0.540779,0.0,0,8.60235,0.0,0.0362451,102.786,9.45956,332.794,-9.30005,102.786
1893,1893,155.3488,9.13226,0.682401,0.0,0,8.46319,0.0,0.0464293,105.937,9.29891,333.0654,-9.29982,105.937
1898,1898,155.3498,9.09058,0.897864,0.0,0,8.32403,0.0,0.0609929,103.758,9.11332,333.315,-9.3004,103.758
1903,1903,155.3508,9.57867,1.05119,0.0,0,8.18487,0.0,0.0725997,108.057,8.93151,333.565,-9.29917,108.057
1908,1908,155.3518,9.770648,1.18523,0.0,0,8.04627,0.0,0.0819965,109.088,8.7882,333.815,-9.30061,109.088
1913,1913,155.3528,9.9906,1.36479,0.0,0,7.91374,0.0,0.0947543,109.99,8.62972,334.065,-9.298934,109.99
1918,1918,155.3538,10.16041,1.507689,0.0,0,7.78134,0.0,0.106002,110.601,8.46197,334.315,-9.30055,110.601
1923,1923,155.3548,10.1858,1.64851,0.0,0,7.64893,0.0,0.115676,109.635,8.32515,334.565,-9.300909,109.635
1928,1928,155.3558,10.40061,1.78992,0.0,0,7.51654,0.0,0.126903,110.671,8.18161,334.815,-9.29881,110.671
1933,1933,155.3568,10.5366,1.93074,0.0,0,7.38467,0.0,0.137386,110.831,8.03274,335.064,-9.30008,110.831
1938,1938,155.3578,10.69634,2.05889,0.0,0,7.25862,0.0,0.147219,111.323,7.89912,335.3143,-9.29971,111.323
1943,1943,155.3588,10.901,2.18826,0.0,0,7.1327,0.0,0.1574358,112.229,7.76787,335.542,-9.2988,112.229
1948,1948,155.3598,10.9387,2.32215,0.0,0,7.00678,0.0,0.167594,111.346,7.63343,335.566,-9.29901,111.346
1953,1953,155.3608,11.0882,2.44326,0.0,0,6.88086,0.0,0.17778,111.701,7.50385,335.59,-9.29921,111.701
1958,1958,155.3618,11.2697,2.5757,0.0,0,6.75544,0.0,0.187619,112.234,7.37723,335.615,-9.29985,112.234
1963,1963,155.3628,11.3226,2.69887,0.0,0,6.63552,0.0,0.198166,111.549,7.24872,335.639,-9.2992,111.549
1968,1968,155.3638,11.5305,2.81715,0.0,0,6.51572,0.0,0.207601,112.413,7.122323,335.663,-9.29927,112.413
1973,1973,155.3648,11.6093,2.94825,0.0,0,6.39592,0.0,0.218111,111.858,6.99968,335.687,-9.29907,111.858
1978,1978,155.3658,11.7524,3.06304,0.0,0,6.27612,0.0,0.228293,112.065,6.87789,335.712,-9.29922,112.065
1983,1983,155.3668,11.8742,3.18798,0.0,0,6.1568,0.0,0.2381532,111.936,6.749867,335.736,-9.30001,111.936
1988,1988,155.3678,12.0142,3.30664,0.0,0,6.042748,0.0,0.24899,112.015,6.626976,335.76,-9.29903,112.015
1993,1993,155.3688,12.1264,3.42891,0.0,0,5.92881,0.0,0.258929,111.772,6.50418,335.759,-9.29957,111.772
1998,1998,155.3698,12.2835,3.54692,0.0,0,5.81487,0.0,0.269431,111.958,6.38406,335.521,-9.29882,111.958
2003,2003,155.3708,12.3762,3.66351,0.0,0,5.70093,0.0,0.279782,111.547,6.25985,335.283,-9.298872,111.547
2008,2008,155.3718,12.5493,3.78867,0.0,0,5.58744,0.0,0.290208,111.74,6.14543,335.045,-9.30091,111.74
2013,2013,155.3728,12.6326,3.89682,0.0,0,5.47893,0.0,0.300915,111.291,6.02859,334.808,-9.29859,111.291
2018,2018,155.3738,12.7934,4.01719,0.0,0,5.37053,0.0,0.310862,111.366,5.91009,334.57,-9.30022,111.366
2023,2023,155.3748,12.8973,4.13239,0.0,0,5.26213,0.0,0.321953,110.976,5.79387,334.3324,-9.3006,110.976
2028,2028,155.3758,13.0472,4.24404,0.0,0,5.15373,0.0,0.332122,110.996,5.67774,334.0947,-9.29863,110.996
2033,2033,155.3768,13.1543,4.35959,0.0,0,5.04577,0.0,0.342728,110.582,5.56605,333.857,-9.30114,110.582
2038,2038,155.3778,13.3063,4.46532,0.0,0,4.942564,0.0,0.353471,110.632,5.45245,333.619,-9.29958,110.632
2043,2043,155.3788,13.3996,4.58704,0.0,0,4.83946,0.0,0.363929,109.985,5.34033,333.337,-9.29999,109.985
2048,2048,155.3798,13.58889,4.69056,0.0,0,4.73636,0.0,0.374917,110.311,5.22862,332.648,-9.29984,110.311
2053,2053,155.3808,13.678,4.80071,0.0,0,4.63326,0.0,0.3851231,109.719,5.12037,331.959,-9.298687,109.719
2058,2058,155.3818,13.8597,4.91873,0.0,0,4.53058,0.0,0.396738,109.748,5.01058,331.271,-9.29911,109.748
2063,2063,155.3828,13.9654,5.01973,0.0,0,4.4324,0.0,0.407342,109.353,4.89777,330.582,-9.29949,109.353
2068,2068,155.3838,14.1666,5.13015,0.0,0,4.33432,0.0,0.417763,109.561,4.79136,329.894,-9.29873,109.561
2073,2073,155.3848,14.261,5.23498,0.0,0,4.23624,0.0,0.4293094,108.985,4.68248,329.2049,-9.29899,108.985
2078,2078,155.3858,14.4329,5.34501,0.0,0,4.13816,0.0,0.439692,108.91,4.57935,328.5163,-9.29903,108.91
2083,2083,155.3868,14.5513,5.44486,0.0,0,4.04047,0.0,0.450666,108.533,4.476,327.8277,-9.30035,108.533
2088,2088,155.3878,14.7442,5.54507,0.0,0,3.9471,0.0,0.461179,108.679,4.37631,327.1391,-9.29901,108.679
2093,2093,155.3888,14.8553,5.65509,0.0,0,3.85382,0.0,0.472326,108.068,4.2713,326.4541,-9.29946,108.068
2098,2098,155.3898,15.0362,5.74378,0.0,0,3.76054,0.0,0.482859,108.217,4.17235,325.802,-9.29904,108.217
2103,2103,155.3908,15.1698,5.84507,0.0,0,3.66726,0.0,0.492846,107.833,4.07398,325.149,-9.29891,107.833
2108,2108,155.3918,15.3657,5.94166,0.0,0,3.57435,0.0,0.504468,107.925,3.97545,324.496,-9.29928,107.925
2113,2113,155.3928,15.4846,6.03577,0.0,0,3.48552,0.0,0.514195,107.484,3.88152,323.844,-9.29833,107.484
2118,2118,155.3938,15.67928,6.13247,0.0,0,3.39678,0.0,0.525233,107.506,3.78653,323.191,-9.29951,107.506
2123,2123,155.3948,15.8193,6.22155,0.0,0,3.30804,0.0,0.535787,107.23,3.69345,322.539,-9.29859,107.23
2128,2128,155.3958,16.0279,6.32278,0.0,0,3.2193,0.0,0.546023,107.222,3.6016,321.886,-9.29891,107.222
2133,2133,155.3968,16.1801,6.407104,0.0,0,3.13092,0.0,0.55729,107.043,3.51006,321.234,-9.29861,107.043
2138,2138,155.3978,16.39889,6.50073,0.0,0,3.04641,0.0,0.567204,107.144,3.41928,320.5813,-9.29866,107.144
2143,2143,155.3988,16.5548,6.59646,0.0,0,2.96199,0.0,0.579153,106.771,3.32798,319.8793,-9.29865,106.771
2148,2148,155.3998,16.7936,6.67819,0.0,0,2.87757,0.0,0.588899,107.107,3.23805,318.732,-9.29836,107.107
2153,2153,155.4008,16.9473,6.77444,0.0,0,2.79315,0.0,0.599966,106.654,3.15107,317.585,-9.29872,106.654
2158,2158,155.4018,17.1919,6.854495,0.0,0,2.70907,0.0,0.611035,106.985,3.05987,316.438,-9.29817,106.985
2163,2163,155.4028,17.3728,6.94823,0.0,0,2.62869,0.0,0.621012,106.68,2.97297,315.291,-9.29865,106.68
2168,2168,155.4038,17.6115,7.03079,0.0,0,2.54839,0.0,0.632506,106.867,2.88496,314.143,-9.2969,106.867
2173,2173,155.4048,17.8333,7.11689,0.0,0,2.46809,0.0,0.642808,106.863,2.80421,312.996,-9.2978,106.863
2178,2178,155.4058,18.0699,7.21012,0.0,0,2.38779,0.0,0.65454,106.799,2.71726,311.849,-9.29792,106.799
2183,2183,155.4068,18.2933,7.28382,0.0,0,2.30781,0.0,0.664873,106.934,2.63308,310.7019,-9.2985,106.934
2188,2188,155.4078,18.5202,7.37202,0.0,0,2.23135,0.0,0.675165,106.823,2.54841,309.555,-9.29721,106.823
2193,2193,155.4088,18.7658,7.45418,0.0,0,2.15497,0.0,0.687372,106.883,2.46549,308.574,-9.298131,106.883
2198,2198,155.4098,19.0275,7.5398,0.0,0,2.07859,0.0,0.697552,106.939,2.38229,309.0892,-9.29817,106.939
2203,2203,155.4108,19.2693,7.61765,0.0,0,2.00221,0.0,0.7085644,106.977,2.30088,309.605,-9.297266,106.977
2208,2208,155.4118,19.5236,7.69769,0.0,0,1.92614,0.0,0.719639,107.013,2.22019,310.12,-9.29781,107.013
2213,2213,155.4128,19.783,7.78396,0.0,0,1.8534,0.0,0.730474,106.931,2.141324,310.635,-9.29702,106.931
2218,2218,155.4138,20.0352,7.8516,0.0,0,1.78074,0.0,0.741469,107.1,2.06361,311.151,-9.29804,107.1
2223,2223,155.4148,20.31422,7.935667,0.0,0,1.70808,0.0,0.751879,107.086,1.98449,311.666,-9.29626,107.086
2228,2228,155.4158,20.5943,8.01069,0.0,0,1.63542,0.0,0.763758,107.201,1.909179,312.182,-9.29699,107.201
2233,2233,155.4168,20.874,8.083622,0.0,0,1.56305,0.0,0.7737267,107.314,1.830716,312.6969,-9.2965,107.314
2238,2238,155.4178,21.1698,8.16168,0.0,0,1.49387,0.0,0.784824,107.377,1.75818,313.212,-9.29625,107.377
2243,2243,155.4188,21.4665,8.22932,0.0,0,1.42475,0.0,0.795799,107.601,1.68671,313.83,-9.29664,107.601
2248,2248,155.4198,21.7693,8.3118,0.0,0,1.35563,0.0,0.806221,107.534,1.61569,315.374,-9.29778,107.534
2253,2253,155.4208,22.1063,8.37712,0.0,0,1.28651,0.0,0.817959,107.925,1.54241,316.917,-9.2966,107.925
2258,2258,155.4218,22.4123,8.44902,0.0,0,1.21766,0.0,0.827523,107.996,1.4691,318.461,-9.29688,107.996
2263,2263,155.4228,22.7788,8.52725,0.0,0,1.15186,0.0,0.8399902,108.189,1.39579,320.004,-9.29505,108.189
2268,2268,155.4238,23.1069,8.59152,0.0,0,1.08612,0.0,0.850316,108.436,1.32307,321.5473,-9.29582,108.436
2273,2273,155.4248,23.4731,8.66322,0.0,0,1.02038,0.0,0.860549,108.668,1.2545,323.091,-9.29509,108.668
2278,2278,155.4258,23.8032,8.72918,0.0,0,0.954636,0.0,0.872782,108.809,1.18396,324.634,-9.29544,108.809
2283,2283,155.4268,24.2014,8.803504,0.0,0,0.889161,0.0,0.8827073,109.041,1.11445,326.1774,-9.29506,109.041
2288,2288,155.4278,24.5242,8.86422,0.0,0,0.826577,0.0,0.894009,109.179,1.04956,327.721,-9.29444,109.179
2293,2293,155.4288,24.931,8.92855,0.0,0,0.7640574,0.0,0.903961,109.573,0.981724,329.16,-9.29451,109.573
2298,2298,155.4298,25.2773,9.00215,0.0,0,0.701537,0.0,0.915564,109.451,0.915818,329.659,-9.29382,109.451
2303,2303,155.4308,25.6602,9.05405,0.0,0,0.639017,0.0,0.925813,109.932,0.851515,330.159,-9.2949,109.932
2308,2308,155.4318,26.029,9.12279,0.0,0,0.576745,0.0,0.935634,109.93,0.789671,330.658,-9.29353,109.93
2313,2313,155.4328,26.4476,9.1798,0.0,0,0.517186,0.0,0.9473967,110.366,0.723762,331.157,-9.29518,110.366
2318,2318,155.4338,26.8103,9.24188,0.0,0,0.457686,0.0,0.956371,110.407,0.662756,331.657,-9.29242,110.407
2323,2323,155.4348,27.2421,9.2999,0.0,0,0.398186,0.0,0.967219,110.788,0.603625,332.156,-9.29367,110.788
2328,2328,155.4358,27.6268,9.35261,0.0,0,0.3386859,0.0,0.977025,111.065,0.546821,332.656,-9.29281,111.065
2330,2330,155.4362,27.7824,9.38514,0.0,0,0.314886,0.0,0.980765,110.892,0.525095,332.855,-9.29194,110.892

File: testID_0138.csv
level_0,index,Time(sec),Force(kN),Jaw(mm),PowAngle(deg),Power(W),Pram,PTemp,Strain,Stress(MPa),Stroke(mm),TC1(C),wedge(mm),uncorrected stress
1973,1973,165.3448,1.19292,0.00493977,0.0,0,9.03371,0.0,0.0004131037,14.5372,10.0693,366.053,-9.28895,14.5372
1978,1978,165.3458,6.06783,0.119435,0.0,0,8.88739,0.0,0.00740709,73.3438,9.9079,366.972,-9.28632,73.3438
1983,1983,165.3468,7.26791,0.384664,0.0,0,8.74165,0.0,0.0257647,86.1823,9.688344,367.888,-9.28381,86.1823
1988,1988,165.3478,8.06025,0.558843,0.0,0,8.60235,0.0,0.0374733,94.3631,9.465167,368.664,-9.28286,94.3631
1993,1993,165.3488,8.26749,0.706931,0.0,0,8.46319,0.0,0.04803383,95.7298,9.30618,369.44,-9.28349,95.7298
1998,1998,165.3498,8.22085,0.937495,0.0,0,8.32403,0.0,0.0639983,93.5488,9.1053,370.217,-9.282115,93.5488
2003,2003,165.3508,8.61192,1.10136,0.0,0,8.18487,0.0,0.0757994,96.777,8.91022,370.993,-9.28273,96.777
2008,2008,165.3518,8.80995,1.22598,0.0,0,8.04627,0.0,0.0852121,98.0513,8.76486,371.77,-9.28233,98.0513
2013,2013,165.3528,8.88995,1.41467,0.0,0,7.91374,0.0,0.0983566,97.4884,8.60528,372.546,-9.28195,97.4884
2018,2018,165.3538,8.99382,1.56306,0.0,0,7.78134,0.0,0.110071,97.4707,8.43346,373.322,-9.28202,97.4707
2023,2023,165.3548,8.98116,1.69829,0.0,0,7.64893,0.0,0.119631,96.2806,8.292346,374.099,-9.28351,96.2806
2028,2028,165.3558,9.25132,1.84293,0.0,0,7.51654,0.0,0.13063,98.0165,8.15555,374.875,-9.28146,98.0165
2033,2033,165.3568,9.282053,1.9801,0.0,0,7.38467,0.0,0.1414481,97.2378,8.00454,375.604,-9.28241,97.2378
2038,2038,165.3578,9.39957,2.10962,0.0,0,7.25862,0.0,0.150799,97.4126,7.8754,375.192,-9.28268,97.4126
2043,2043,165.3588,9.56527,2.23179,0.0,0,7.1327,0.0,0.161009,98.1157,7.74308,374.78,-9.28267,98.1157
2048,2048,165.3598,9.58559,2.3648,0.0,0,7.00678,0.0,0.17096,97.2175,7.61655,374.368,-9.28088,97.2175
2053,2053,165.3608,9.65349,2.481344,0.0,0,6.88086,0.0,0.1805921,96.9293,7.4944,373.956,-9.28475,96.9293
2058,2058,165.3618,9.85339,2.6014,0.0,0,6.75544,0.0,0.1901134,97.9091,7.37192,373.5441,-9.28142,97.9091
2063,2063,165.3628,9.83423,2.72722,0.0,0,6.63552,0.0,0.200071,96.6439,7.24699,373.132,-9.2828,96.6439
2068,2068,165.3638,10.0061,2.83509,0.0,0,6.51572,0.0,0.20951,97.3948,7.129,372.72,-9.28218,97.3948
2073,2073,165.3648,10.0903,2.962471,0.0,0,6.39592,0.0,0.219131,97.0979,7.01144,372.308,-9.28159,97.0979
2078,2078,165.3658,10.173,3.07502,0.0,0,6.27612,0.0,0.2293146,96.8977,6.88802,371.896,-9.28298,96.8977
2083,2083,165.3668,10.2789,3.19107,0.0,0,6.1568,0.0,0.238656,96.8696,6.76718,371.491,-9.28291,96.8696
2088,2088,165.3678,10.3843,3.31435,0.0,0,6.042748,0.0,0.249206,96.7493,6.64902,371.191,-9.28138,96.7493
2093,2093,165.3688,10.4879,3.42844,0.0,0,5.92881,0.0,0.259229,96.6738,6.52964,370.891,-9.28367,96.6738
2098,2098,165.3698,10.61025,3.55202,0.0,0,5.81487,0.0,0.269492,96.6602,6.40745,370.591,-9.28119,96.6602
2103,2103,165.3708,10.7075,3.66688,0.0,0,5.70093,0.0,0.28036,96.4755,6.2918,370.291,-9.28265,96.4755
2108,2108,165.3718,10.8328,3.79003,0.0,0,5.58744,0.0,0.290522,96.4425,6.17184,369.991,-9.28208,96.4425
2113,2113,165.3728,10.9275,3.90555,0.0,0,5.47893,0.0,0.301375,96.1866,6.05165,369.692,-9.28243,96.1866
2118,2118,165.3738,11.04131,4.0193,0.0,0,5.37053,0.0,0.311475,96.094,5.93507,369.392,-9.282795,96.094
2123,2123,165.3748,11.1429,4.14266,0.0,0,5.26213,0.0,0.322428,95.7803,5.81672,369.092,-9.2828,95.7803
2128,2128,165.3758,11.2689,4.25215,0.0,0,5.15373,0.0,0.333334,95.7878,5.6996,368.792,-9.281476,95.7878
2133,2133,165.3768,11.3708,4.37339,0.0,0,5.04577,0.0,0.343817,95.4516,5.58282,368.428,-9.28252,95.4516
2138,2138,165.3778,11.5004,4.484,0.0,0,4.942564,0.0,0.355205,95.4298,5.46467,367.329,-9.28283,95.4298
2143,2143,165.3788,11.5942,4.60131,0.0,0,4.83946,0.0,0.365648,95.0219,5.35074,366.229,-9.28169,95.0219
2148,2148,165.3798,11.7151,4.71364,0.0,0,4.73636,0.0,0.376814,94.864,5.24197,365.13,-9.28259,94.864
2153,2153,165.3808,11.8194,4.82248,0.0,0,4.63326,0.0,0.387717,94.5858,5.12782,364.03,-9.28284,94.5858
2158,2158,165.3818,11.9281,4.94378,0.0,0,4.53058,0.0,0.398901,94.1916,5.01424,362.931,-9.28208,94.1916
2163,2163,165.3828,12.05731,5.04247,0.0,0,4.4324,0.0,0.409894,94.1726,4.90787,361.831,-9.28223,94.1726
2168,2168,165.3838,12.1641,5.158916,0.0,0,4.33432,0.0,0.420679,93.7691,4.79845,360.732,-9.28172,93.7691
2173,2173,165.3848,12.3118,5.26475,0.0,0,4.23624,0.0,0.432259,93.7686,4.68817,359.632,-9.28155,93.7686
2178,2178,165.3858,12.3994,5.36796,0.0,0,4.13816,0.0,0.442413,93.3165,4.58225,358.533,-9.28228,93.3165
2183,2183,165.3868,12.54425,5.47773,0.0,0,4.04047,0.0,0.453752,93.2023,4.47933,357.457,-9.28189,93.2023
2188,2188,165.3878,12.664,5.57464,0.0,0,3.9471,0.0,0.464788,93.0181,4.374404,356.595,-9.28193,93.0181
2193,2193,165.3888,12.8155,5.68435,0.0,0,3.85382,0.0,0.475139,92.9005,4.2711,355.733,-9.28062,92.9005
2198,2198,165.3898,12.9144,5.78183,0.0,0,3.76054,0.0,0.4869214,92.5156,4.166481,354.871,-9.28258,92.5156
2203,2203,165.3908,13.08,5.8788,0.0,0,3.66726,0.0,0.496765,92.5908,4.06858,354.008,-9.28171,92.5908
2208,2208,165.3918,13.2115,5.987432,0.0,0,3.57435,0.0,0.508849,92.2647,3.96544,353.1463,-9.28138,92.2647
2213,2213,165.3928,13.3594,6.07909,0.0,0,3.48552,0.0,0.519431,92.2246,3.86956,352.284,-9.28218,92.2246
2218,2218,165.3938,13.4893,6.17704,0.0,0,3.39678,0.0,0.529754,91.9634,3.77142,351.422,-9.28123,91.9634
2223,2223,165.3948,13.6579,6.27152,0.0,0,3.30804,0.0,0.541752,91.9809,3.67812,350.56,-9.28204,91.9809
2228,2228,165.3958,13.7871,6.369597,0.0,0,3.2193,0.0,0.551739,91.6656,3.58342,349.698,-9.28054,91.6656
2233,2233,165.3968,13.9647,6.45829,0.0,0,3.13092,0.0,0.563087,91.7598,3.49213,348.934,-9.28159,91.7598
2238,2238,165.3978,14.09,6.55054,0.0,0,3.04641,0.0,0.573425,91.442,3.39947,348.888,-9.28105,91.442
2243,2243,165.3988,14.2732,6.64628,0.0,0,2.96199,0.0,0.584447,91.4317,3.309288,348.842,-9.28057,91.4317
2248,2248,165.3998,14.4053,6.7271,0.0,0,2.87757,0.0,0.595238,91.2555,3.22156,348.797,-9.28054,91.2555
2253,2253,165.4008,14.6032,6.82026,0.0,0,2.79315,0.0,0.605279,91.3147,3.13167,348.751,-9.28075,91.3147
2258,2258,165.4018,14.7294,6.90457,0.0,0,2.70907,0.0,0.616971,91.0123,3.04279,348.705,-9.2808,91.0123
2263,2263,165.4028,14.9447,6.98941,0.0,0,2.62869,0.0,0.626469,91.2288,2.95904,348.66,-9.28086,91.2288
2268,2268,165.4038,15.0857,7.07681,0.0,0,2.54839,0.0,0.637809,90.9304,2.87277,348.614,-9.28031,90.9304
2273,2273,165.4048,15.2997,7.15596,0.0,0,2.46809,0.0,0.648159,91.1552,2.79301,348.568,-9.28048,91.1552
2278,2278,165.4058,15.4611,7.24821,0.0,0,2.38779,0.0,0.658912,90.8626,2.71011,348.522,-9.27897,90.8626
2283,2283,165.4068,15.6923,7.32025,0.0,0,2.30781,0.0,0.669869,91.2271,2.62569,348.3728,-9.2802,91.2271
2288,2288,165.4078,15.8514,7.40923,0.0,0,2.23135,0.0,0.679848,90.9108,2.54121,347.584,-9.2797,90.9108
2293,2293,165.4088,16.0841,7.49148,0.0,0,2.15497,0.0,0.692152,91.0808,2.45804,346.796,-9.27926,91.0808
2298,2298,165.4098,16.2705,7.5678,0.0,0,2.07859,0.0,0.701728,91.0433,2.37823,346.0072,-9.280365,91.0433
2303,2303,165.4108,16.5034,7.65054,0.0,0,2.00221,0.0,0.712708,91.1435,2.29857,345.219,-9.2797,91.1435
2308,2308,165.4118,16.7195,7.72482,0.0,0,1.92614,0.0,0.723939,91.2434,2.2202,344.43,-9.27956,91.2434
2313,2313,165.4128,16.976,7.81246,0.0,0,1.8534,0.0,0.73419,91.332,2.14275,343.6416,-9.27983,91.332
2318,2318,165.4138,17.1642,7.88306,0.0,0,1.78074,0.0,0.745898,91.2769,2.06497,342.853,-9.279645,91.2769
2323,2323,165.4148,17.44562,7.96304,0.0,0,1.70808,0.0,0.75601,91.5434,1.9842,342.065,-9.27959,91.5434
2328,2328,165.4158,17.66497,8.04493,0.0,0,1.63542,0.0,0.768199,91.4189,1.90946,341.276,-9.27888,91.4189
2333,2333,165.4168,17.9557,8.11618,0.0,0,1.56305,0.0,0.778813,91.7954,1.83191,340.571,-9.2787,91.7954
2338,2338,165.4178,18.1543,8.19475,0.0,0,1.49387,0.0,0.7893821,91.5522,1.7558,340.303,-9.278451,91.5522
2343,2343,165.4188,18.4672,8.262208,0.0,0,1.42475,0.0,0.800838,92.031,1.68549,340.035,-9.27771,92.031
2348,2348,165.4198,18.6871,8.34662,0.0,0,1.35563,0.0,0.811636,91.7349,1.60925,339.767,-9.27808,91.7349
2353,2353,165.4208,19.0008,8.40965,0.0,0,1.28651,0.0,0.822502,92.218,1.53819,339.499,-9.27866,92.218
2358,2358,165.4218,19.26506,8.48408,0.0,0,1.21766,0.0,0.833159,92.2347,1.46534,339.231,-9.27735,92.2347
2363,2363,165.4228,19.5873,8.56373,0.0,0,1.15186,0.0,0.845016,92.3998,1.39432,338.9632,-9.279,92.3998
2368,2368,165.4238,19.8486,8.62216,0.0,0,1.08612,0.0,0.855691,92.6085,1.32155,338.695,-9.27681,92.6085
2373,2373,165.4248,20.1951,8.70037,0.0,0,1.02038,0.0,0.866193,92.8302,1.24953,338.427,-9.27818,92.8302
2378,2378,165.4258,20.5018,8.7674,0.0,0,0.954636,0.0,0.878718,93.0261,1.18002,338.159,-9.27818,93.0261
2383,2383,165.4268,20.8578,8.836935,0.0,0,0.889161,0.0,0.88843,93.36,1.10768,337.986,-9.2763,93.36
2388,2388,165.4278,21.1728,8.9083,0.0,0,0.826577,0.0,0.900962,93.4349,1.04058,338.241,-9.2775,93.4349
2393,2393,165.4288,21.5176,8.96733,0.0,0,0.7640574,0.0,0.910724,93.8339,0.970099,338.497,-9.27602,93.8339
2398,2398,165.4298,21.8568,9.04486,0.0,0,0.701537,0.0,0.922453,93.8153,0.902158,338.753,-9.27605,93.8153
2403,2403,165.4308,22.2353,9.1051,0.0,0,0.639017,0.0,0.9345206,94.2558,0.835628,339.009,-9.27677,94.2558
2408,2408,165.4318,22.5932,9.17201,0.0,0,0.576745,0.0,0.943897,94.4367,0.770685,339.2645,-9.27603,94.4367
2413,2413,165.4328,22.96637,9.23743,0.0,0,0.517186,0.0,0.956902,94.6683,0.704826,339.52,-9.27581,94.6683
2418,2418,165.4338,23.3309,9.2981,0.0,0,0.457686,0.0,0.966641,94.9195,0.640616,339.776,-9.27586,94.9195
2423,2423,165.4348,23.7177,9.36266,0.0,0,0.398186,0.0,0.977697,95.1393,0.575766,340.032,-9.27631,95.1393
2426,2426,165.4354,23.9244,9.40058,0.0,0,0.362486,0.0,0.985029,95.1662,0.5397,340.185,-9.27765,95.1662