Folder: paramaterial/examples/hot axisymmetric compression example/data/04 corrected data (part 2)

File: testID_0141.csv
level_0,index,Time(sec),Force(kN),Jaw(mm),PowAngle(deg),Power(W),Pram,PTemp,Strain,Stress(MPa),Stroke(mm),TC1(C),wedge(mm),uncorrected stress
1972,1972,165.3446,0.173734,0.0417673,0.0,0,9.06297,0.0,0.0025009,2.11164,10.0817,359.453,-9.28931,2.11164
1977,1977,165.3456,6.269731,0.164872,0.0,0,8.91665,0.0,0.0109864,75.5379,9.91672,359.914,-9.28702,75.5379
1982,1982,165.3466,7.11789,0.42837,0.0,0,8.77033,0.0,0.0285843,84.1343,9.68841,360.376,-9.28455,84.1343
1987,1987,165.3476,8.35806,0.601379,0.0,0,8.63019,0.0,0.0410611,97.5419,9.46738,360.8378,-9.283061,97.5419
1992,1992,165.3486,8.47734,0.7594291,0.0,0,8.491025,0.0,0.0518619,97.7744,9.30445,361.2995,-9.28379,97.7744
1997,1997,165.3496,8.32402,0.96753,0.0,0,8.35186,0.0,0.06609416,94.5064,9.110837,361.7612,-9.28232,94.5064
2002,2002,165.3506,8.63731,1.12341,0.0,0,8.21271,0.0,0.0778737,96.8973,8.91951,362.2229,-9.2831,96.8973
2007,2007,165.3516,8.61201,1.27165,0.0,0,8.07354,0.0,0.0878892,95.5076,8.76971,362.6745,-9.28232,95.5076
2012,2012,165.3526,8.93154,1.44161,0.0,0,7.94022,0.0,0.100572,97.7359,8.61436,363.073,-9.28303,97.7359
2017,2017,165.3536,9.10536,1.5887,0.0,0,7.80782,0.0,0.1115905,98.4772,8.45055,363.471,-9.28234,98.4772
2022,2022,165.3546,9.07938,1.7224,0.0,0,7.675415,0.0,0.121349,97.1437,8.31267,363.87,-9.28296,97.1437
2027,2027,165.3556,9.41088,1.850865,0.0,0,7.543015,0.0,0.131391,99.6422,8.17192,364.268,-9.2835,99.6422
2032,2032,165.3566,9.351285,1.99651,0.0,0,7.410615,0.0,0.1422285,97.8298,8.0277,364.667,-9.28304,97.8298
2037,2037,165.3576,9.47452,2.11649,0.0,0,7.2838,0.0,0.151931,98.1328,7.89885,365.065,-9.28139,98.1328
2042,2042,165.3586,9.67881,2.23585,0.0,0,7.15788,0.0,0.160811,99.2463,7.77531,365.464,-9.28377,99.2463
2047,2047,165.3596,9.657444,2.36989,0.0,0,7.03196,0.0,0.171531,97.9035,7.64456,365.862,-9.281743,97.9035
2052,2052,165.3606,9.81205,2.47951,0.0,0,6.90604,0.0,0.180569,98.537,7.52226,366.26,-9.28355,98.537
2057,2057,165.3616,9.98179,2.60297,0.0,0,6.78012,0.0,0.189789,99.1713,7.39873,366.623,-9.28372,99.1713
2062,2062,165.3626,9.97805,2.71915,0.0,0,6.65948,0.0,0.199965,98.1272,7.28018,366.722,-9.28307,98.1272
2067,2067,165.3636,10.1496,2.83202,0.0,0,6.53968,0.0,0.208623,98.8188,7.16028,366.822,-9.28363,98.8188
2072,2072,165.3646,10.22543,2.95448,0.0,0,6.41988,0.0,0.21898,98.4689,7.043097,366.921,-9.28322,98.4689
2077,2077,165.3656,10.3204,3.07044,0.0,0,6.30008,0.0,0.2287229,98.343,6.92051,367.02,-9.2823,98.343
2082,2082,165.3666,10.4355,3.1894,0.0,0,6.18028,0.0,0.238425,98.3601,6.79987,367.12,-9.28439,98.3601
2087,2087,165.3676,10.52381,3.29919,0.0,0,6.06554,0.0,0.248371,98.1878,6.68178,367.219,-9.28228,98.1878
2092,2092,165.3686,10.6508,3.42561,0.0,0,5.9516,0.0,0.258506,98.2013,6.56058,367.319,-9.28385,98.2013
2097,2097,165.3696,10.7483,3.54005,0.0,0,5.83766,0.0,0.268947,98.0299,6.44582,367.418,-9.28333,98.0299
2102,2102,165.3706,10.8555,3.65461,0.0,0,5.72372,0.0,0.278965,97.9253,6.32558,367.5173,-9.28245,97.9253
2107,2107,165.3716,10.9736,3.78115,0.0,0,5.60978,0.0,0.289651,97.7817,6.20557,367.5491,-9.28373,97.7817
2112,2112,165.3726,11.1011,3.89315,0.0,0,5.50061,0.0,0.300478,97.8346,6.08943,366.804,-9.283,97.8346
2117,2117,165.3736,11.1915,4.01274,0.0,0,5.39221,0.0,0.310528,97.4654,5.97029,366.058,-9.28219,97.4654
2122,2122,165.3746,11.3347,4.1315,0.0,0,5.283813,0.0,0.32208,97.5396,5.85114,365.312,-9.28337,97.5396
2127,2127,165.3756,11.4162,4.2469,0.0,0,5.17541,0.0,0.33246,97.0923,5.72986,364.567,-9.28204,97.0923
2132,2132,165.3766,11.5758,4.36522,0.0,0,5.06701,0.0,0.3432987,97.2554,5.61332,363.821,-9.28374,97.2554
2137,2137,165.3776,11.6582,4.47781,0.0,0,4.96318,0.0,0.354534,96.8025,5.49769,363.076,-9.28291,96.8025
2142,2142,165.3786,11.7875,4.59916,0.0,0,4.86008,0.0,0.365134,96.6279,5.37858,362.33,-9.283577,96.6279
2147,2147,165.3796,11.8855,4.70647,0.0,0,4.75698,0.0,0.3763898,96.3181,5.26955,361.585,-9.28233,96.3181
2152,2152,165.3806,12.0081,4.81915,0.0,0,4.65388,0.0,0.387025,96.1306,5.15592,360.839,-9.28362,96.1306
2157,2157,165.3816,12.11382,4.93857,0.0,0,4.55078,0.0,0.398732,95.7134,5.04402,360.089,-9.28287,95.7134
2162,2162,165.3826,12.2649,5.04021,0.0,0,4.45201,0.0,0.409334,95.818,4.93224,359.226,-9.28309,95.818
2167,2167,165.3836,12.3435,5.15601,0.0,0,4.35393,0.0,0.420315,95.1832,4.82263,358.363,-9.28248,95.1832
2172,2172,165.3846,12.5171,5.26016,0.0,0,4.25585,0.0,0.431913,95.3822,4.7139,357.5,-9.28324,95.3822
2177,2177,165.3856,12.5901,5.36926,0.0,0,4.15777,0.0,0.442322,94.7377,4.60586,356.637,-9.28229,94.7377
2182,2182,165.3866,12.7462,5.47333,0.0,0,4.05969,0.0,0.453505,94.752,4.4994,355.774,-9.28283,94.752
2187,2187,165.3876,12.8424,5.57334,0.0,0,3.96575,0.0,0.464386,94.3429,4.39747,354.911,-9.28359,94.3429
2192,2192,165.3886,13.0029,5.68393,0.0,0,3.87247,0.0,0.475208,94.2642,4.29564,354.048,-9.28182,94.2642
2197,2197,165.3896,13.0993,5.77499,0.0,0,3.77919,0.0,0.486147,93.9185,4.19527,353.185,-9.283884,93.9185
2202,2202,165.3906,13.27982,5.87663,0.0,0,3.68591,0.0,0.4963505,94.0307,4.09604,352.322,-9.2806,94.0307
2207,2207,165.3916,13.3662,5.9781,0.0,0,3.59263,0.0,0.508226,93.4542,3.99828,351.46,-9.28339,93.4542
2212,2212,165.3926,13.5558,6.0667,0.0,0,3.50327,0.0,0.518035,93.7278,3.90126,351.743,-9.28292,93.7278
2217,2217,165.3936,13.65766,6.16919,0.0,0,3.41453,0.0,0.528956,93.2049,3.80342,352.027,-9.2816,93.2049
2222,2222,165.3946,13.8295,6.257246,0.0,0,3.32579,0.0,0.540096,93.3098,3.71005,352.311,-9.2836,93.3098
2227,2227,165.3956,13.95764,6.354269,0.0,0,3.23705,0.0,0.549936,92.9869,3.61735,352.594,-9.28263,92.9869
2232,2232,165.3966,14.1426,6.44479,0.0,0,3.14831,0.0,0.561289,93.0958,3.52595,352.8782,-9.28224,93.0958
2237,2237,165.3976,14.2738,6.53388,0.0,0,3.06329,0.0,0.571533,92.844,3.43087,353.162,-9.28147,92.844
2242,2242,165.3986,14.4587,6.62909,0.0,0,2.97887,0.0,0.582404,92.8384,3.34582,353.446,-9.28215,92.8384
2247,2247,165.3996,14.5945,6.71205,0.0,0,2.894454,0.0,0.593348,92.6467,3.25547,353.7294,-9.28154,92.6467
2252,2252,165.4006,14.8323,6.80285,0.0,0,2.810034,0.0,0.603354,92.9739,3.16564,354.013,-9.28233,92.9739
2257,2257,165.4016,14.9643,6.891964,0.0,0,2.72561,0.0,0.615189,92.6298,3.08062,354.297,-9.28248,92.6298
2262,2262,165.4026,15.1912,6.97835,0.0,0,2.64475,0.0,0.625264,92.8809,2.9939,353.116,-9.28096,92.8809
2267,2267,165.4036,15.3346,7.06593,0.0,0,2.56445,0.0,0.636108,92.5774,2.9051,351.874,-9.28266,92.5774
2272,2272,165.4046,15.5676,7.14796,0.0,0,2.48415,0.0,0.647461,92.8613,2.81897,350.632,-9.28143,92.8613
2277,2277,165.4056,15.7285,7.24145,0.0,0,2.40385,0.0,0.657894,92.5277,2.73336,349.39,-9.28186,92.5277
2282,2282,165.4066,15.9626,7.31897,0.0,0,2.32355,0.0,0.66939,92.8165,2.65064,348.148,-9.28143,92.8165
2287,2287,165.4076,16.1172,7.40422,0.0,0,2.24663,0.0,0.679634,92.5064,2.56481,346.9064,-9.28124,92.5064
2292,2292,165.4086,16.371,7.49169,0.0,0,2.170248,0.0,0.691375,92.7022,2.48222,345.664,-9.28012,92.7022
2297,2297,165.4096,16.5662,7.56515,0.0,0,2.093868,0.0,0.701918,92.7366,2.40017,344.423,-9.2812,92.7366
2302,2302,165.4106,16.8045,7.652699,0.0,0,2.01749,0.0,0.71267,92.7746,2.31678,343.181,-9.28066,92.7746
2307,2307,165.4116,17.0237,7.72913,0.0,0,1.941108,0.0,0.724566,92.8386,2.23723,341.939,-9.281354,92.8386
2312,2312,165.4126,17.2743,7.81034,0.0,0,1.86794,0.0,0.734351,92.9694,2.15871,339.949,-9.28114,92.9694
2317,2317,165.4136,17.49,7.88992,0.0,0,1.79528,0.0,0.746207,92.9036,2.08109,337.894,-9.279911,92.9036
2322,2322,165.4146,17.7531,7.96472,0.0,0,1.72262,0.0,0.756994,93.1308,2.00398,335.839,-9.27999,93.1308
2327,2327,165.4156,17.9836,8.04967,0.0,0,1.64996,0.0,0.767961,92.9929,1.92629,333.7847,-9.28065,92.9929
2332,2332,165.4166,18.2652,8.118269,0.0,0,1.5773,0.0,0.7796,93.3437,1.84959,331.73,-9.27877,93.3437
2337,2337,165.4176,18.5047,8.19737,0.0,0,1.50769,0.0,0.789589,93.277,1.77253,329.675,-9.28055,93.277
2342,2342,165.4186,18.7925,8.27237,0.0,0,1.43857,0.0,0.801774,93.484,1.6973,327.62,-9.27982,93.484
2347,2347,165.4196,19.0369,8.34489,0.0,0,1.36945,0.0,0.812263,93.4812,1.62587,325.566,-9.28021,93.4812
2352,2352,165.4206,19.3479,8.41752,0.0,0,1.30033,0.0,0.822822,93.7683,1.55119,323.511,-9.27969,93.7683
2357,2357,165.4216,19.6089,8.48578,0.0,0,1.23121,0.0,0.834562,93.8513,1.47995,321.456,-9.27914,93.8513
2362,2362,165.4226,19.9232,8.567112,0.0,0,1.165,0.0,0.8450231,93.925,1.40825,319.616,-9.27952,93.925
2367,2367,165.4236,20.2039,8.62704,0.0,0,1.09926,0.0,0.856099,94.1791,1.3347,317.805,-9.279171,94.1791
2372,2372,165.4246,20.5208,8.69844,0.0,0,1.03352,0.0,0.866527,94.3624,1.26514,315.995,-9.27854,94.3624
2377,2377,165.4256,20.8269,8.77521,0.0,0,0.967784,0.0,0.878426,94.3574,1.19578,314.184,-9.278841,94.3574
2382,2382,165.4266,21.1595,8.83106,0.0,0,0.9020443,0.0,0.888869,94.82,1.12285,312.373,-9.27843,94.82
2387,2387,165.4276,21.4818,8.90512,0.0,0,0.839081,0.0,0.899255,94.8585,1.05678,310.563,-9.27835,94.8585
2392,2392,165.4286,21.8066,8.96725,0.0,0,0.776561,0.0,0.911299,95.0957,0.987219,308.752,-9.27783,95.0957
2397,2397,165.4296,22.1693,9.03371,0.0,0,0.714041,0.0,0.921013,95.375,0.920518,306.941,-9.2782,95.375
2402,2402,165.4306,22.5031,9.100275,0.0,0,0.651521,0.0,0.9326061,95.4871,0.856178,305.131,-9.27747,95.4871
2407,2407,165.4316,22.8764,9.15694,0.0,0,0.589001,0.0,0.943082,95.9253,0.793536,303.32,-9.2773,95.9253
2412,2412,165.4326,23.2269,9.23107,0.0,0,0.529086,0.0,0.953934,95.8726,0.730405,303.245,-9.2773,95.8726
2417,2417,165.4336,23.62,9.28227,0.0,0,0.469586,0.0,0.9650349,96.4262,0.661434,303.5007,-9.27818,96.4262
2422,2422,165.4346,23.9795,9.34747,0.0,0,0.4100858,0.0,0.974903,96.5115,0.600658,303.756,-9.27704,96.5115
2426,2426,165.4354,24.2936,9.3896,0.0,0,0.362486,0.0,0.983824,96.8707,0.550961,303.961,-9.27678,96.8707

File: testID_0146.csv
level_0,index,Time(sec),Force(kN),Jaw(mm),PowAngle(deg),Power(W),Pram,PTemp,Strain,Stress(MPa),Stroke(mm),TC1(C),wedge(mm),uncorrected stress
2438,2438,212.0228,0.459781,0.0881852,0.0,0,9.09223,0.0,0.00580856,5.56994,10.1415,502.888,-9.20869,5.56994
2443,2443,212.0238,4.51322,0.228527,0.0,0,8.94591,0.0,0.0150991,54.127,9.97842,503.383,-9.204567,54.127
2448,2448,212.0248,4.45081,0.567003,0.0,0,8.79959,0.0,0.037605,52.0752,9.71018,503.879,-9.204071,52.0752
2453,2453,212.0258,4.90112,0.796956,0.0,0,8.65802,0.0,0.0546935,56.3684,9.43142,504.374,-9.20468,56.3684
2458,2458,212.0268,4.94122,0.938461,0.0,0,8.518857,0.0,0.0643792,56.2243,9.22097,504.765,-9.20403,56.2243
2463,2463,212.0278,4.6894,1.17835,0.0,0,8.3797,0.0,0.0810282,52.3847,9.01683,504.738,-9.204607,52.3847
2468,2468,212.0288,4.81021,1.37045,0.0,0,8.24054,0.0,0.09560819,52.9337,8.80067,504.711,-9.203867,52.9337
2473,2473,212.0298,4.68521,1.51505,0.0,0,8.10138,0.0,0.105958,50.971,8.63031,504.684,-9.20391,50.971
2478,2478,212.0308,4.99053,1.67127,0.0,0,7.9667,0.0,0.117861,53.6169,8.48818,504.6572,-9.20378,53.6169
2483,2483,212.0318,4.92625,1.82246,0.0,0,7.8343,0.0,0.129135,52.2804,8.32973,504.63,-9.203722,52.2804
2488,2488,212.0328,4.81725,1.94016,0.0,0,7.7019,0.0,0.138082,50.6318,8.19717,504.603,-9.20383,50.6318
2493,2493,212.0338,5.000843,2.03359,0.0,0,7.5695,0.0,0.145568,52.1562,8.0878,504.577,-9.20434,52.1562
2498,2498,212.0348,4.98019,2.15626,0.0,0,7.4371,0.0,0.15449,51.4107,7.96874,504.55,-9.20257,51.4107
2503,2503,212.0358,4.91286,2.25929,0.0,0,7.30899,0.0,0.163142,50.2764,7.86105,504.523,-9.20409,50.2764
2508,2508,212.0368,5.12078,2.35179,0.0,0,7.18307,0.0,0.170099,51.9929,7.76197,504.421,-9.20318,51.9929
2513,2513,212.0378,5.09285,2.46433,0.0,0,7.05715,0.0,0.178939,51.2118,7.65761,504.018,-9.20357,51.2118
2518,2518,212.0388,5.13668,2.56053,0.0,0,6.93123,0.0,0.187046,51.2234,7.557,503.6153,-9.20445,51.2234
2523,2523,212.0398,5.23286,2.66176,0.0,0,6.80531,0.0,0.194741,51.7225,7.45237,503.213,-9.20159,51.7225
2528,2528,212.0408,5.24214,2.76796,0.0,0,6.68344,0.0,0.203862,51.3305,7.34998,502.81,-9.20448,51.3305
2533,2533,212.0418,5.31798,2.87789,0.0,0,6.56364,0.0,0.212546,51.5651,7.23729,502.407,-9.20355,51.5651
2538,2538,212.0428,5.41017,2.988209,0.0,0,6.44384,0.0,0.22164,51.9403,7.118907,502.004,-9.203001,51.9403
2543,2543,212.0438,5.43968,3.10798,0.0,0,6.32404,0.0,0.2321482,51.6572,7.001987,501.601,-9.20418,51.6572
2548,2548,212.0448,5.53982,3.234587,0.0,0,6.20424,0.0,0.242087,51.9982,6.87912,501.199,-9.20319,51.9982
2553,2553,212.0458,5.573997,3.34782,0.0,0,6.08832,0.0,0.252389,51.77,6.75827,500.7959,-9.20454,51.77
2558,2558,212.0468,5.66744,3.47879,0.0,0,5.97438,0.0,0.263275,51.992,6.63114,500.391,-9.20364,51.992
2563,2563,212.0478,5.71714,3.61364,0.0,0,5.86044,0.0,0.274997,51.777,6.49879,499.979,-9.203805,51.777
2568,2568,212.0488,5.77754,3.73333,0.0,0,5.7465,0.0,0.2860401,51.7218,6.37052,499.5676,-9.2042,51.7218
2573,2573,212.0498,5.841589,3.86691,0.0,0,5.63256,0.0,0.297413,51.6157,6.24126,499.156,-9.2036,51.6157
2578,2578,212.0508,5.92374,3.99646,0.0,0,5.52229,0.0,0.309673,51.6731,6.11209,498.7439,-9.20348,51.6731
2583,2583,212.0518,5.95442,4.12079,0.0,0,5.41389,0.0,0.320615,51.2955,5.98411,498.332,-9.20294,51.2955
2588,2588,212.0528,6.03376,4.246038,0.0,0,5.30549,0.0,0.3321735,51.3203,5.8554,497.92,-9.20374,51.3203
2593,2593,212.0538,6.09127,4.36618,0.0,0,5.19709,0.0,0.3440049,51.1712,5.73348,497.5083,-9.20397,51.1712
2598,2598,212.0548,6.12427,4.495317,0.0,0,5.08869,0.0,0.355272,50.7586,5.60911,497.096,-9.20358,50.7586
2603,2603,212.0558,6.19707,4.60342,0.0,0,4.9838,0.0,0.366549,50.7774,5.48935,496.6846,-9.20373,50.7774
2608,2608,212.0568,6.22333,4.71945,0.0,0,4.8807,0.0,0.377238,50.3624,5.37341,496.242,-9.20335,50.3624
2613,2613,212.0578,6.288826,4.84142,0.0,0,4.7776,0.0,0.388946,50.2227,5.26125,495.678,-9.2031,50.2227
2618,2618,212.0588,6.3467,4.94674,0.0,0,4.6745,0.0,0.40011,50.1011,5.14802,495.114,-9.20328,50.1011
2623,2623,212.0598,6.3871,5.05662,0.0,0,4.571404,0.0,0.4103018,49.8069,5.03503,494.55,-9.20482,49.8069
2628,2628,212.0608,6.431056,5.16721,0.0,0,4.47163,0.0,0.422216,49.5282,4.93066,493.986,-9.20259,49.5282
2633,2633,212.0618,6.47736,5.272315,0.0,0,4.37355,0.0,0.432598,49.2897,4.82254,493.422,-9.204752,49.2897
2638,2638,212.0628,6.5274,5.37338,0.0,0,4.27547,0.0,0.44295,49.0936,4.719624,492.858,-9.20296,49.0936
2643,2643,212.0638,6.59823,5.47362,0.0,0,4.17739,0.0,0.454033,49.0478,4.61441,492.294,-9.20346,49.0478
2648,2648,212.0648,6.65359,5.58394,0.0,0,4.07931,0.0,0.464598,48.8171,4.51472,491.73,-9.2037,48.8171
2653,2653,212.0658,6.72541,5.67638,0.0,0,3.98441,0.0,0.475465,48.8,4.4097,491.166,-9.203557,48.8
2658,2658,212.0668,6.77354,5.77312,0.0,0,3.89113,0.0,0.485413,48.5756,4.31358,490.613,-9.20214,48.5756
2663,2663,212.0678,6.83628,5.87723,0.0,0,3.79785,0.0,0.496472,48.4022,4.21672,490.109,-9.20213,48.4022
2668,2668,212.0688,6.88485,5.96549,0.0,0,3.70457,0.0,0.50714,48.2138,4.12166,489.604,-9.20216,48.2138
2673,2673,212.0698,6.9765,6.06332,0.0,0,3.61129,0.0,0.516957,48.2576,4.02431,489.099,-9.20358,48.2576
2678,2678,212.0708,7.03525,6.15834,0.0,0,3.52102,0.0,0.528641,48.0781,3.93123,488.595,-9.202527,48.0781
2683,2683,212.0718,7.13386,6.25474,0.0,0,3.432277,0.0,0.538946,48.149,3.83587,488.09,-9.20286,48.149
2688,2688,212.0728,7.17381,6.35048,0.0,0,3.34354,0.0,0.549783,47.8163,3.74374,487.585,-9.20343,47.8163
2693,2693,212.0738,7.28687,6.43592,0.0,0,3.2548,0.0,0.560624,48.0238,3.65137,487.08,-9.20282,48.0238
2698,2698,212.0748,7.34275,6.53783,0.0,0,3.16606,0.0,0.571177,47.7354,3.55698,486.576,-9.20357,47.7354
2703,2703,212.0758,7.46394,6.62608,0.0,0,3.08018,0.0,0.582891,47.9451,3.465126,486.071,-9.20201,47.9451
2708,2708,212.0768,7.52881,6.71667,0.0,0,2.99576,0.0,0.593332,47.7629,3.3741,485.383,-9.20346,47.7629
2713,2713,212.0778,7.63416,6.816143,0.0,0,2.91134,0.0,0.604968,47.7643,3.28022,483.964,-9.20329,47.7643
2718,2718,212.0788,7.72196,6.901041,0.0,0,2.82692,0.0,0.616428,47.7377,3.191299,482.5444,-9.20177,47.7377
2723,2723,212.0798,7.8283,6.997488,0.0,0,2.7425,0.0,0.627151,47.7316,3.10024,481.125,-9.20309,47.7316
2728,2728,212.0808,7.90074,7.08508,0.0,0,2.66081,0.0,0.639413,47.565,3.01151,479.706,-9.20143,47.565
2733,2733,212.0818,8.010107,7.17437,0.0,0,2.58051,0.0,0.650115,47.5944,2.91786,478.286,-9.20359,47.5944
2738,2738,212.0828,8.09092,7.26775,0.0,0,2.50021,0.0,0.661934,47.4101,2.83034,476.867,-9.20126,47.4101
2743,2743,212.0838,8.21394,7.34873,0.0,0,2.41991,0.0,0.67349,47.5458,2.74277,475.4473,-9.20356,47.5458
2748,2748,212.0848,8.29508,7.44106,0.0,0,2.33961,0.0,0.6839875,47.3414,2.65627,474.028,-9.20182,47.3414
2753,2753,212.0858,8.42683,7.52705,0.0,0,2.2619,0.0,0.696676,47.4554,2.57069,472.608,-9.20194,47.4554
2758,2758,212.0868,8.49979,7.60958,0.0,0,2.18552,0.0,0.70731,47.2486,2.48431,471.1655,-9.20231,47.2486
2763,2763,212.0878,8.64838,7.69595,0.0,0,2.10914,0.0,0.718615,47.4167,2.40154,469.628,-9.2029,47.4167
2768,2768,212.0888,8.71344,7.77133,0.0,0,2.03276,0.0,0.73023,47.1948,2.31915,468.091,-9.20283,47.1948
2773,2773,212.0898,8.86502,7.85768,0.0,0,1.95638,0.0,0.740895,47.3412,2.23948,466.554,-9.2015,47.3412
2778,2778,212.0908,8.94892,7.93426,0.0,0,1.88247,0.0,0.75306,47.1852,2.1597,465.017,-9.20243,47.1852
2783,2783,212.0918,9.1011,8.01158,0.0,0,1.80981,0.0,0.76315,47.3672,2.08185,463.48,-9.20183,47.3672
2788,2788,212.0928,9.18701,8.09337,0.0,0,1.73715,0.0,0.774787,47.1518,2.00498,461.942,-9.2009,47.1518
2793,2793,212.0938,9.34146,8.16288,0.0,0,1.66449,0.0,0.786068,47.3717,1.9312,460.405,-9.20101,47.3717
2798,2798,212.0948,9.4305,8.24869,0.0,0,1.59183,0.0,0.797025,47.1093,1.85402,458.868,-9.20157,47.1093
2803,2803,212.0958,9.56958,8.3177,0.0,0,1.52151,0.0,0.8085463,47.2214,1.77877,457.331,-9.20153,47.2214
2808,2808,212.0968,9.69375,8.39023,0.0,0,1.45239,0.0,0.819078,47.2135,1.70225,456.08,-9.20106,47.2135
2813,2813,212.0978,9.85375,8.47171,0.0,0,1.38327,0.0,0.8308481,47.2841,1.63159,455.972,-9.20128,47.2841
2818,2818,212.0988,9.97809,8.53426,0.0,0,1.31415,0.0,0.8418954,47.3297,1.55911,455.864,-9.201251,47.3297
2823,2823,212.0998,10.1332,8.6122,0.0,0,1.24503,0.0,0.852314,47.3681,1.486766,455.757,-9.20081,47.3681
2828,2828,212.1008,10.2728,8.6832,0.0,0,1.17815,0.0,0.865044,47.3766,1.41968,455.649,-9.2005,47.3766
2833,2833,212.1018,10.4472,8.74775,0.0,0,1.11241,0.0,0.874646,47.5851,1.34724,455.5415,-9.20091,47.5851
2838,2838,212.1028,10.5876,8.82254,0.0,0,1.04667,0.0,0.886127,47.525,1.27292,455.434,-9.200634,47.525
2843,2843,212.1038,10.7678,8.88697,0.0,0,0.980932,0.0,0.8981002,47.7209,1.20547,455.3262,-9.20017,47.7209
2848,2848,212.1048,10.9204,8.96125,0.0,0,0.915192,0.0,0.9082728,47.6803,1.134179,455.219,-9.20219,47.6803
2853,2853,212.1058,11.10878,9.02366,0.0,0,0.851585,0.0,0.920228,47.89,1.06855,455.1109,-9.199357,47.89
2858,2858,212.1068,11.2608,9.09016,0.0,0,0.789065,0.0,0.930831,47.8837,1.00051,455.006,-9.20148,47.8837
2863,2863,212.1078,11.4682,9.163991,0.0,0,0.726545,0.0,0.942673,48.0169,0.931109,454.91,-9.19914,48.0169
2868,2868,212.1088,11.63026,9.22048,0.0,0,0.664025,0.0,0.954278,48.1146,0.868744,454.814,-9.20093,48.1146
2873,2873,212.1098,11.83721,9.29033,0.0,0,0.6015054,0.0,0.964505,48.2398,0.800849,454.718,-9.19901,48.2398
2878,2878,212.1108,12.04736,9.35617,0.0,0,0.540986,0.0,0.9777711,48.395,0.734611,454.622,-9.200098,48.395
2883,2883,212.1118,12.2542,9.41618,0.0,0,0.4814859,0.0,0.987623,48.5757,0.668437,454.527,-9.19961,48.5757
2888,2888,212.1128,12.4456,9.48526,0.0,0,0.421986,0.0,0.999522,48.574,0.603968,454.431,-9.19901,48.574
2890,2890,212.1132,12.5404,9.50295,0.0,0,0.398186,0.0,1.00461,48.7479,0.580393,454.392,-9.19897,48.7479